#Sample	Not specified	
#B-Field Phi	-2.06685213190E+1	deg
RF-Frequency	Timestamp	Photon Counter1 CH A	Photon Counter1 CH B	Photon Counter1 Ratio
Hz	s since 1904-01-01 12amUTC	counts	counts	a.u.
2770000000.00	3728983176.89	1106914.00000	1107361.00000	0.999596337599
2770850000.00	3728983178.18	1097223.00000	1099461.00000	0.997964457129
2771700000.00	3728983179.51	1099558.00000	1097834.00000	1.00157036492
2772550000.00	3728983180.80	1104773.00000	1104421.00000	1.00031871904
2773400000.00	3728983182.09	1105638.00000	1106469.00000	0.999248962239
2774250000.00	3728983183.40	1095863.00000	1095847.00000	1.00001460058
2775100000.00	3728983184.69	1084378.00000	1086267.00000	0.998261016859
2775950000.00	3728983185.98	1087921.00000	1086589.00000	1.00122585449
2776800000.00	3728983187.31	1084896.00000	1087184.00000	0.997895480434
2777650000.00	3728983188.60	1079939.00000	1081816.00000	0.998264954484
2778500000.00	3728983189.89	1075452.00000	1076737.00000	0.998806579508
2779350000.00	3728983191.22	1069923.00000	1069743.00000	1.00016826471
2780200000.00	3728983192.51	1069714.00000	1071502.00000	0.998331314361
2781050000.00	3728983193.80	1074689.00000	1076386.00000	0.998423428027
2781900000.00	3728983195.13	1082637.00000	1085056.00000	0.997770621977
2782750000.00	3728983196.42	1075697.00000	1077141.00000	0.998659414134
2783600000.00	3728983197.71	1078176.00000	1077372.00000	1.00074626034
2784450000.00	3728983199.04	1051629.00000	1052135.00000	0.999519073123
2785300000.00	3728983200.33	1063465.00000	1064707.00000	0.998833481888
2786150000.00	3728983201.62	1057107.00000	1058568.00000	0.998619833587
2787000000.00	3728983202.95	1056271.00000	1058240.00000	0.998139363471
2787850000.00	3728983204.24	1071367.00000	1072678.00000	0.998777825219
2788700000.00	3728983205.53	1061110.00000	1062287.00000	0.998892013175
2789550000.00	3728983206.86	1051807.00000	1053028.00000	0.998840486673
2790400000.00	3728983208.15	1060087.00000	1060158.00000	0.999933028850
2791250000.00	3728983209.43	1059338.00000	1057250.00000	1.00197493497
2792100000.00	3728983210.75	1053207.00000	1055948.00000	0.997404228239
2792950000.00	3728983212.04	1059643.00000	1060969.00000	0.998750199110
2793800000.00	3728983213.33	1066170.00000	1066037.00000	1.00012476115
2794650000.00	3728983214.66	1058871.00000	1061448.00000	0.997572184412
2795500000.00	3728983215.95	1061236.00000	1060705.00000	1.00050061044
2796350000.00	3728983217.23	1057562.00000	1056705.00000	1.00081101159
2797200000.00	3728983218.55	1055931.00000	1057036.00000	0.998954624062
2798050000.00	3728983219.84	1048067.00000	1047749.00000	1.00030350781
2798900000.00	3728983221.11	1065479.00000	1067375.00000	0.998223679588
2799750000.00	3728983222.44	1058894.00000	1059347.00000	0.999572378078
2800600000.00	3728983223.73	1074580.00000	1074324.00000	1.00023828938
2801450000.00	3728983225.02	1066777.00000	1069234.00000	0.997702093274
2802300000.00	3728983226.34	1074195.00000	1074587.00000	0.999635208689
2803150000.00	3728983227.63	1069027.00000	1071087.00000	0.998076720192
2804000000.00	3728983228.96	1066941.00000	1066207.00000	1.00068842167
2804850000.00	3728983230.25	1071269.00000	1071776.00000	0.999526953393
2805700000.00	3728983231.54	1069892.00000	1070979.00000	0.998985040790
2806550000.00	3728983232.87	1058582.00000	1059664.00000	0.998978921620
2807400000.00	3728983234.16	1057854.00000	1060326.00000	0.997668641531
2808250000.00	3728983235.45	1068286.00000	1070424.00000	0.998002660628
2809100000.00	3728983236.78	1062951.00000	1062673.00000	1.00026160446
2809950000.00	3728983238.07	1055304.00000	1058966.00000	0.996541909750
2810800000.00	3728983239.36	1060010.00000	1062490.00000	0.997665860385
2811650000.00	3728983240.69	1058815.00000	1059040.00000	0.999787543436
2812500000.00	3728983241.98	1066285.00000	1067192.00000	0.999150106073
2813350000.00	3728983243.27	1067183.00000	1068751.00000	0.998532866870
2814200000.00	3728983244.59	1074039.00000	1077593.00000	0.996701908791
2815050000.00	3728983245.88	1077111.00000	1077528.00000	0.999613003096
2815900000.00	3728983247.21	1076025.00000	1078547.00000	0.997661668893
2816750000.00	3728983248.50	1074449.00000	1076113.00000	0.998453693989
2817600000.00	3728983249.79	1070168.00000	1070005.00000	1.00015233574
2818450000.00	3728983251.12	1058296.00000	1062041.00000	0.996473770787
2819300000.00	3728983252.41	1077516.00000	1077240.00000	1.00025621032
2820150000.00	3728983253.70	1071080.00000	1070527.00000	1.00051656801
2821000000.00	3728983255.03	1071611.00000	1073822.00000	0.997940999533
2821850000.00	3728983256.32	1062568.00000	1064805.00000	0.997899145853
2822700000.00	3728983257.60	1072785.00000	1072375.00000	1.00038232894
2823550000.00	3728983258.93	1069518.00000	1071237.00000	0.998395313082
2824400000.00	3728983260.22	1066700.00000	1066545.00000	1.00014532908
2825250000.00	3728983261.51	1063780.00000	1063201.00000	1.00054458188
2826100000.00	3728983262.84	1074309.00000	1076884.00000	0.997608841807
2826950000.00	3728983264.13	1069423.00000	1072230.00000	0.997382091529
2827800000.00	3728983265.42	1071051.00000	1071291.00000	0.999775971235
2828650000.00	3728983266.75	1060897.00000	1061531.00000	0.999402749425
2829500000.00	3728983268.03	1068282.00000	1069717.00000	0.998658523703
2830350000.00	3728983269.32	1064185.00000	1063691.00000	1.00046442059
2831200000.00	3728983270.65	1067503.00000	1069208.00000	0.998405361726
2832050000.00	3728983271.94	1072491.00000	1072208.00000	1.00026394132
2832900000.00	3728983273.23	1066562.00000	1068299.00000	0.998374050711
2833750000.00	3728983274.55	1071243.00000	1073383.00000	0.998006303435
2834600000.00	3728983275.84	1083203.00000	1087080.00000	0.996433565147
2835450000.00	3728983277.12	1086883.00000	1088119.00000	0.998864094828
2836300000.00	3728983278.44	1083011.00000	1083204.00000	0.999821824882
2837150000.00	3728983279.72	1078248.00000	1080149.00000	0.998240057622
2838000000.00	3728983281.02	1068590.00000	1070064.00000	0.998622512298
2838850000.00	3728983282.34	1068641.00000	1069374.00000	0.999314552252
2839700000.00	3728983283.63	1049992.00000	1051809.00000	0.998272500045
2840550000.00	3728983284.92	1062989.00000	1065217.00000	0.997908407395
2841400000.00	3728983286.25	1063740.00000	1066811.00000	0.997121327020
2842250000.00	3728983287.54	1064926.00000	1067578.00000	0.997515872377
2843100000.00	3728983288.83	1075601.00000	1077160.00000	0.998552675554
2843950000.00	3728983290.13	1070440.00000	1073824.00000	0.996848645588
2844800000.00	3728983291.44	1083415.00000	1085315.00000	0.998249356178
2845650000.00	3728983292.72	1074851.00000	1078277.00000	0.996822708822
2846500000.00	3728983294.01	1062582.00000	1065017.00000	0.997713651519
2847350000.00	3728983295.33	1063986.00000	1065539.00000	0.998542521672
2848200000.00	3728983296.61	1058573.00000	1060876.00000	0.997829152512
2849050000.00	3728983297.93	1046505.00000	1050283.00000	0.996402874273
2849900000.00	3728983299.22	1034794.00000	1037341.00000	0.997544683956
2850750000.00	3728983300.51	1049792.00000	1056268.00000	0.993868980221
2851600000.00	3728983301.84	1034286.00000	1040302.00000	0.994217063891
2852450000.00	3728983303.12	1027282.00000	1036192.00000	0.991401207498
2853300000.00	3728983304.42	1040319.00000	1048819.00000	0.991895646437
2854150000.00	3728983305.74	1026434.00000	1034556.00000	0.992149289164
2855000000.00	3728983307.03	1035488.00000	1046190.00000	0.989770500578
2855850000.00	3728983308.32	1039200.00000	1047846.00000	0.991748787513
2856700000.00	3728983309.65	1043273.00000	1056411.00000	0.987563552443
2857550000.00	3728983310.94	1042194.00000	1051607.00000	0.991048937483
2858400000.00	3728983312.23	1050382.00000	1062494.00000	0.988600406214
2859250000.00	3728983313.56	1045233.00000	1055288.00000	0.990471795377
2860100000.00	3728983314.85	1048352.00000	1056504.00000	0.992283985674
2860950000.00	3728983316.14	1045929.00000	1055958.00000	0.990502463166
2861800000.00	3728983317.46	1036219.00000	1044441.00000	0.992127846379
2862650000.00	3728983318.75	1033957.00000	1041189.00000	0.993054094886
2863500000.00	3728983320.08	1022063.00000	1027650.00000	0.994563324089
2864350000.00	3728983321.37	1032136.00000	1035591.00000	0.996663740801
2865200000.00	3728983322.66	1034054.00000	1037975.00000	0.996222452371
2866050000.00	3728983323.99	1038030.00000	1042182.00000	0.996016050939
2866900000.00	3728983325.28	1032151.00000	1032892.00000	0.999282596825
2867750000.00	3728983326.57	1032847.00000	1035568.00000	0.997372456468
2868600000.00	3728983327.90	1047632.00000	1048784.00000	0.998901585074
2869450000.00	3728983329.19	1037656.00000	1040851.00000	0.996930396378
2870300000.00	3728983330.48	1036415.00000	1038551.00000	0.997943288293
2871150000.00	3728983331.80	1032259.00000	1030781.00000	1.00143386423
2872000000.00	3728983333.09	1041109.00000	1041222.00000	0.999891473672
2872850000.00	3728983334.38	1050031.00000	1052810.00000	0.997360397413
2873700000.00	3728983335.71	1048268.00000	1051089.00000	0.997316116904
2874550000.00	3728983337.00	1039521.00000	1042089.00000	0.997535719118
2875400000.00	3728983338.28	1044943.00000	1044159.00000	1.00075084350
